task_name,duration,task_type,task_parameters,start_trigger,end_trigger,word,color,congruency,trial_sign,trials.thisRepN,trials.thisTrialN,trials.thisN,trials.thisIndex,acq_start.thisRepN,acq_start.thisTrialN,acq_start.thisN,acq_start.thisIndex,wait.thisRepN,wait.thisTrialN,wait.thisN,wait.thisIndex,stroop.thisRepN,stroop.thisTrialN,stroop.thisN,stroop.thisIndex,math.thisRepN,math.thisTrialN,math.thisN,math.thisIndex,stroop_trials_practice.thisRepN,stroop_trials_practice.thisTrialN,stroop_trials_practice.thisN,stroop_trials_practice.thisIndex,stroop_trials.thisRepN,stroop_trials.thisTrialN,stroop_trials.thisN,stroop_trials.thisIndex,math_trials_practice.thisRepN,math_trials_practice.thisTrialN,math_trials_practice.thisN,math_trials_practice.thisIndex,math_trials.thisRepN,math_trials.thisTrialN,math_trials.thisN,math_trials.thisIndex,text_11.started,p_port_x_send_6.started,text_11.stopped,p_port_x_send_6.stopped,text_10.started,p_port_x_send_5.started,text_10.stopped,p_port_x_send_5.stopped,key_resp_stroop_prac.keys,key_resp_stroop_prac.corr,key_resp_stroop_prac.rt,p_port_x_send_2.started,p_port_x_send_2.stopped,key_resp.keys,key_resp.corr,key_resp.rt,corr_ans_math,math_correct,response_rt,textbox_2.text,p_port_x_send_4.started,p_port_x_send_4.stopped,textbox.text,participant,condition,output folder,date,expName,psychopyVersion,frameRate,
Acquisition Start,1,acq_start,None,128,129,,,,,0,0,0,0,0,0,0,0,,,,,,,,,,,,,,,,,,,,,,,,,,,,,9.216127300000153,0.00041260000034526456,10.214242099999865,1.0014203999999154,,,,,,,,,,,,,,,,,,,,,,Results/,2022-08-24_15h26.01.869,scheduler,2022.2.3,60.591849063291974,
Acquisition Start,1,acq_start,None,128,129,,,,,0,0,0,0,,,,,,,,,,,,,,,,,,,,,,,,,,,,,,,,,,,,,,,,,,,,,,,,,,,,,,,,,,Results/,2022-08-24_15h26.01.869,scheduler,2022.2.3,60.591849063291974,
Wait 1,5,wait,None,130,131,,,,,0,1,1,1,,,,,0,0,0,0,,,,,,,,,,,,,,,,,,,,,,,,,,,,,10.214242099999865,0.0005462999997689622,15.218283399999564,5.002362799999901,,,,,,,,,,,,,,,,,,Results/,2022-08-24_15h26.01.869,scheduler,2022.2.3,60.591849063291974,
Wait 1,5,wait,None,130,131,,,,,0,1,1,1,,,,,,,,,,,,,,,,,,,,,,,,,,,,,,,,,,,,,,,,,,,,,,,,,,,,,,,,,,Results/,2022-08-24_15h26.01.869,scheduler,2022.2.3,60.591849063291974,
Stroop English,10,stroop,{'filename': 'stroop-eng-'},132,133,RED,blue,incongruent,,0,2,2,2,,,,,,,,,0,0,0,0,,,,,0,0,0,6,,,,,,,,,,,,,,,,,,,,,r,0,1.0065697,,,,,,,,,,,,,,,Results/,2022-08-24_15h26.01.869,scheduler,2022.2.3,60.591849063291974,
Stroop English,10,stroop,{'filename': 'stroop-eng-'},132,133,BLUE,green,incongruent,,0,2,2,2,,,,,,,,,0,0,0,0,,,,,0,1,1,5,,,,,,,,,,,,,,,,,,,,,r,0,0.16557820000070933,,,,,,,,,,,,,,,Results/,2022-08-24_15h26.01.869,scheduler,2022.2.3,60.591849063291974,
Stroop English,10,stroop,{'filename': 'stroop-eng-'},132,133,BLUE,red,incongruent,,0,2,2,2,,,,,,,,,0,0,0,0,,,,,0,2,2,2,,,,,,,,,,,,,,,,,,,,,r,1,0.1302243999998609,,,,,,,,,,,,,,,Results/,2022-08-24_15h26.01.869,scheduler,2022.2.3,60.591849063291974,
Stroop English,10,stroop,{'filename': 'stroop-eng-'},132,133,RED,green,incongruent,,0,2,2,2,,,,,,,,,0,0,0,0,,,,,0,3,3,3,,,,,,,,,,,,,,,,,,,,,r,0,0.08470960000067862,,,,,,,,,,,,,,,Results/,2022-08-24_15h26.01.869,scheduler,2022.2.3,60.591849063291974,
Stroop English,10,stroop,{'filename': 'stroop-eng-'},132,133,BLUE,blue,congruent,,0,2,2,2,,,,,,,,,0,0,0,0,,,,,0,4,4,8,,,,,,,,,,,,,,,,,,,,,r,0,0.05646660000002157,,,,,,,,,,,,,,,Results/,2022-08-24_15h26.01.869,scheduler,2022.2.3,60.591849063291974,
Stroop English,10,stroop,{'filename': 'stroop-eng-'},132,133,RED,red,congruent,,0,2,2,2,,,,,,,,,0,0,0,0,,,,,0,5,5,0,,,,,,,,,,,,,,,,,,,,,r,1,0.08019460000105028,,,,,,,,,,,,,,,Results/,2022-08-24_15h26.01.869,scheduler,2022.2.3,60.591849063291974,
Stroop English,10,stroop,{'filename': 'stroop-eng-'},132,133,GREEN,green,congruent,,0,2,2,2,,,,,,,,,0,0,0,0,,,,,0,6,6,4,,,,,,,,,,,,,,,,,,,,,r,0,0.052887700000610494,,,,,,,,,,,,,,,Results/,2022-08-24_15h26.01.869,scheduler,2022.2.3,60.591849063291974,
Stroop English,10,stroop,{'filename': 'stroop-eng-'},132,133,GREEN,red,incongruent,,0,2,2,2,,,,,,,,,0,0,0,0,,,,,0,7,7,1,,,,,,,,,,,,,,,,,,,,,r,1,0.06023350000032224,,,,,,,,,,,,,,,Results/,2022-08-24_15h26.01.869,scheduler,2022.2.3,60.591849063291974,
Stroop English,10,stroop,{'filename': 'stroop-eng-'},132,133,GREEN,blue,incongruent,,0,2,2,2,,,,,,,,,0,0,0,0,,,,,0,8,8,7,,,,,,,,,,,,,,,,,,,,,r,0,0.033156500000586675,,,,,,,,,,,,,,,Results/,2022-08-24_15h26.01.869,scheduler,2022.2.3,60.591849063291974,
Stroop English,10,stroop,{'filename': 'stroop-eng-'},132,133,GREEN,blue,incongruent,,0,2,2,2,,,,,,,,,0,0,0,0,,,,,,,,,0,0,0,7,,,,,,,,,,,,,,,,,,,,0.09896810000009282,3.634794300000067,r,0,3.5145071000006283,,,,,,,,,,Results/,2022-08-24_15h26.01.869,scheduler,2022.2.3,60.591849063291974,
Stroop English,10,stroop,{'filename': 'stroop-eng-'},132,133,RED,blue,incongruent,,0,2,2,2,,,,,,,,,0,0,0,0,,,,,,,,,0,1,1,6,,,,,,,,,,,,,,,,,,,,0.020662899999479123,4.71135090000007,r,0,4.680273500000112,,,,,,,,,,Results/,2022-08-24_15h26.01.869,scheduler,2022.2.3,60.591849063291974,
Stroop English,10,stroop,{'filename': 'stroop-eng-'},132,133,RED,green,incongruent,,0,2,2,2,,,,,,,,,0,0,0,0,,,,,,,,,0,2,2,3,,,,,,,,,,,,,,,,,,,,0.019996300000457268,1.5592034999999669,None,0,,,,,,,,,,,Results/,2022-08-24_15h26.01.869,scheduler,2022.2.3,60.591849063291974,
Stroop English,10,stroop,{'filename': 'stroop-eng-'},132,133,,,,,0,2,2,2,,,,,,,,,0,0,0,0,,,,,,,,,,,,,,,,,,,,,,,,,,,,,,,,,,,,,,,,,,,,,,Results/,2022-08-24_15h26.01.869,scheduler,2022.2.3,60.591849063291974,
Stroop English,10,stroop,{'filename': 'stroop-eng-'},132,133,,,,,0,2,2,2,,,,,,,,,,,,,,,,,,,,,,,,,,,,,,,,,,,,,,,,,,,,,,,,,,,,,,,,,,Results/,2022-08-24_15h26.01.869,scheduler,2022.2.3,60.591849063291974,
Math,20,math,"{'filename': 'math-', 'max_value': 40, 'presentation_duration': 2}",134,135,,,,subtraction,0,3,3,3,,,,,,,,,,,,,0,0,0,0,,,,,,,,,0,0,0,1,,,,,,,,,,,,,,,,,,,,,4,0,11.971691800000372,"3
",,,,,,Results/,2022-08-24_15h26.01.869,scheduler,2022.2.3,60.591849063291974,
Math,20,math,"{'filename': 'math-', 'max_value': 40, 'presentation_duration': 2}",134,135,,,,multiplication,0,3,3,3,,,,,,,,,,,,,0,0,0,0,,,,,,,,,0,1,1,3,,,,,,,,,,,,,,,,,,,,,35,0,0.5486522999999579,"3
",,,,,,Results/,2022-08-24_15h26.01.869,scheduler,2022.2.3,60.591849063291974,
Math,20,math,"{'filename': 'math-', 'max_value': 40, 'presentation_duration': 2}",134,135,,,,addition,0,3,3,3,,,,,,,,,,,,,0,0,0,0,,,,,,,,,0,2,2,0,,,,,,,,,,,,,,,,,,,,,14,0,0.5786195000000589,"3
",,,,,,Results/,2022-08-24_15h26.01.869,scheduler,2022.2.3,60.591849063291974,
Math,20,math,"{'filename': 'math-', 'max_value': 40, 'presentation_duration': 2}",134,135,,,,division,0,3,3,3,,,,,,,,,,,,,0,0,0,0,,,,,,,,,0,3,3,2,,,,,,,,,,,,,,,,,,,,,0.5,0,0.6072179000002507,"3
",,,,,,Results/,2022-08-24_15h26.01.869,scheduler,2022.2.3,60.591849063291974,
Math,20,math,"{'filename': 'math-', 'max_value': 40, 'presentation_duration': 2}",134,135,,,,division,0,3,3,3,,,,,,,,,,,,,0,0,0,0,,,,,,,,,,,,,0,0,0,2,,,,,,,,,,,,,,,,,1.8,0,0.6329242000001614,,0.09611680000034539,0.8154655000007551,"3
",,,Results/,2022-08-24_15h26.01.869,scheduler,2022.2.3,60.591849063291974,
Math,20,math,"{'filename': 'math-', 'max_value': 40, 'presentation_duration': 2}",134,135,,,,multiplication,0,3,3,3,,,,,,,,,,,,,0,0,0,0,,,,,,,,,,,,,0,1,1,3,,,,,,,,,,,,,,,,,5,0,4.138222600000518,,0.023221699999339762,4.262447499999325,"3
",,,Results/,2022-08-24_15h26.01.869,scheduler,2022.2.3,60.591849063291974,
Math,20,math,"{'filename': 'math-', 'max_value': 40, 'presentation_duration': 2}",134,135,,,,addition,0,3,3,3,,,,,,,,,,,,,0,0,0,0,,,,,,,,,,,,,0,2,2,0,,,,,,,,,,,,,,,,,20,0,0.7758110000004308,,0.02277779999985796,0.9056592999995701,"3
",,,Results/,2022-08-24_15h26.01.869,scheduler,2022.2.3,60.591849063291974,
Math,20,math,"{'filename': 'math-', 'max_value': 40, 'presentation_duration': 2}",134,135,,,,subtraction,0,3,3,3,,,,,,,,,,,,,0,0,0,0,,,,,,,,,,,,,0,3,3,1,,,,,,,,,,,,,,,,,-1,0,0.6515208000000712,,0.025411699999494886,0.7852871999994022,"3
",,,Results/,2022-08-24_15h26.01.869,scheduler,2022.2.3,60.591849063291974,
Math,20,math,"{'filename': 'math-', 'max_value': 40, 'presentation_duration': 2}",134,135,,,,division,0,3,3,3,,,,,,,,,,,,,0,0,0,0,,,,,,,,,,,,,1,0,4,2,,,,,,,,,,,,,,,,,0.3333333333333333,0,0.557303999999931,,0.024507600000106322,0.6857691999994131,"3
",,,Results/,2022-08-24_15h26.01.869,scheduler,2022.2.3,60.591849063291974,
Math,20,math,"{'filename': 'math-', 'max_value': 40, 'presentation_duration': 2}",134,135,,,,multiplication,0,3,3,3,,,,,,,,,,,,,0,0,0,0,,,,,,,,,,,,,1,1,5,3,,,,,,,,,,,,,,,,,40,0,0.48107139999956416,,0.023843899999519635,0.6025584999997591,"3
",,,Results/,2022-08-24_15h26.01.869,scheduler,2022.2.3,60.591849063291974,
,,,,,,,,,,,,,,,,,,,,,,,,,,,,,,,,,,,,,,,,,,,,,,,,,,,,,,,,,,,,,,,,,,0.023297699999602628,11.862925599999471,,,,,,,,,
